File: C_hexagonal_XRD_spherical_angles.txt
h,k,l,Incident_Theta,Incident_Psi,Reflected_Theta,Reflected_Psi,IncidentXYZ_1,IncidentXYZ_2,IncidentXYZ_3,ReflectedXYZ_1,ReflectedXYZ_2,ReflectedXYZ_3,Intensity
0,0,2,NaN,NaN,NaN,NaN,NaN,NaN,NaN,NaN,NaN,NaN,76864.7
0,0,4,NaN,NaN,NaN,NaN,NaN,NaN,NaN,NaN,NaN,NaN,6046.18
0,0,6,NaN,NaN,NaN,NaN,NaN,NaN,NaN,NaN,NaN,NaN,1249.91
0,0,8,NaN,NaN,NaN,NaN,NaN,NaN,NaN,NaN,NaN,NaN,455.617
0,0,10,NaN,NaN,NaN,NaN,NaN,NaN,NaN,NaN,NaN,NaN,215.366
0,1,0,-11.2042,90.1,11.2042,90.1,0.980939,-0.194306,-0.00174533,0.980939,0.194306,-0.00174533,2927.04
0,1,1,-12.3192,90.1,10.1699,83.01,0.976973,-0.213357,-0.00174533,0.976973,0.175255,0.121696,14573.8
0,1,2,-15.7606,90.1,6.93109,75.8101,0.962403,-0.271618,-0.00174533,0.962403,0.116994,0.245137,3002.77
0,1,3,-21.6596,90.1,1.2033,68.3721,0.929392,-0.36909,-0.00174533,0.929392,0.0195216,0.368578,4860.81
0,1,4,-30.3827,90.1,-7.73419,60.5266,0.862665,-0.505773,-0.00174533,0.862665,-0.117161,0.492019,869.678
0,1,5,-42.9741,90.1,-21.8277,52.0147,0.731661,-0.681666,-0.00174533,0.731661,-0.293054,0.61546,1487.36
0,1,6,-63.7369,90.1,-48.9513,42.3621,0.442494,-0.89677,-0.00174533,0.442494,-0.508158,0.738901,303.574
0,2,0,-22.8682,90.1,22.8682,90.1,0.9214,-0.388612,-0.00174533,0.9214,0.388612,-0.00174533,196.889
0,2,1,-23.4618,90.1,22.453,83.01,0.917324,-0.398137,-0.00174533,0.917324,0.379086,0.121696,1129.85
0,2,2,-25.2944,90.1,21.1597,75.8101,0.904123,-0.427268,-0.00174533,0.904123,0.349956,0.245137,331.886
0,2,3,-28.4248,90.1,18.907,68.3721,0.879441,-0.476004,-0.00174533,0.879441,0.30122,0.368578,823.12
0,2,4,-32.98,90.1,15.5154,60.5266,0.838859,-0.544345,-0.00174533,0.838859,0.232878,0.492019,217.323
0,2,5,-39.2195,90.1,10.5961,52.0147,0.774728,-0.632292,-0.00174533,0.774728,0.144932,0.61546,503.855
0,2,6,-47.7182,90.1,3.18012,42.3621,0.672776,-0.739844,-0.00174533,0.672776,0.0373799,0.738901,128.43
0,2,7,-60.1121,90.1,-10.2132,30.4194,0.498303,-0.867001,-0.00174533,0.498303,-0.0897772,0.862342,294.986
0,3,0,-35.6561,90.1,35.6561,90.1,0.812529,-0.582918,-0.00174533,0.812529,0.582918,-0.00174533,778.524
0,3,2,-37.4948,90.1,35.0773,75.8101,0.793407,-0.608689,-0.00174533,0.793407,0.557147,0.245137,1448.32
0,3,4,-43.3727,90.1,33.3886,60.5266,0.726901,-0.68674,-0.00174533,0.726901,0.479096,0.492019,1193.07
0,3,6,-54.7929,90.1,31.1711,42.3621,0.576532,-0.817072,-0.00174533,0.576532,0.348763,0.738901,928.432
0,3,8,-88.5666,90.1,81.4379,9.67287,0.0250153,-0.999686,-0.00174533,0.0250153,0.16615,0.985783,753.021
0,4,0,-51.0072,90.1,51.0072,90.1,0.629222,-0.777224,-0.00174533,0.629222,0.777224,-0.00174533,23.0136
0,4,1,-51.4429,90.1,51.1002,83.01,0.623293,-0.781986,-0.00174533,0.623293,0.772461,0.121696,137.595
0,4,2,-52.8022,90.1,51.4209,75.8101,0.604568,-0.796552,-0.00174533,0.604568,0.757896,0.245137,45.434
0,4,3,-55.1771,90.1,52.0998,68.3721,0.571041,-0.82092,-0.00174533,0.571041,0.733528,0.368578,134.683
0,4,4,-58.7699,90.1,53.4482,60.5266,0.518476,-0.855091,-0.00174533,0.518476,0.699357,0.492019,44.4972
0,4,5,-64.0355,90.1,56.256,52.0147,0.437814,-0.899064,-0.00174533,0.437814,0.655384,0.61546,133.747
0,4,6,-72.3339,90.1,63.2323,42.3621,0.303469,-0.95284,-0.00174533,0.303469,0.601608,0.738901,45.6155
0,5,0,-76.2957,90.1,76.2957,90.1,0.236911,-0.97153,-0.00174533,0.236911,0.97153,-0.00174533,42.8595
0,5,1,-77.2498,90.1,77.1527,83.01,0.220701,-0.97534,-0.00174533,0.220701,0.96772,0.121696,266.003
0,5,2,-80.749,90.1,80.4552,75.8101,0.160759,-0.986992,-0.00174533,0.160759,0.956067,0.245137,99.9157
1,0,0,-11.2042,90.1,11.2042,90.1,0.980939,-0.194306,-0.00174533,0.980939,0.194306,-0.00174533,2927.04
1,0,1,-12.3192,90.1,10.1699,83.01,0.976973,-0.213357,-0.00174533,0.976973,0.175255,0.121696,14573.8
1,0,2,-15.7606,90.1,6.93109,75.8101,0.962403,-0.271618,-0.00174533,0.962403,0.116994,0.245137,3002.77
1,0,3,-21.6596,90.1,1.2033,68.3721,0.929392,-0.36909,-0.00174533,0.929392,0.0195216,0.368578,4860.81
1,0,4,-30.3827,90.1,-7.73419,60.5266,0.862665,-0.505773,-0.00174533,0.862665,-0.117161,0.492019,869.678
1,0,5,-42.9741,90.1,-21.8277,52.0147,0.731661,-0.681666,-0.00174533,0.731661,-0.293054,0.61546,1487.36
1,0,6,-63.7369,90.1,-48.9513,42.3621,0.442494,-0.89677,-0.00174533,0.442494,-0.508158,0.738901,303.574
1,1,0,-19.6667,90.1,19.6667,90.1,0.941665,-0.336548,-0.00174533,0.941665,0.336548,-0.00174533,5347.41
1,1,2,-22.4071,90.1,17.5236,75.8101,0.924498,-0.381184,-0.00174533,0.924498,0.291911,0.245137,8449.49
1,1,4,-31.0893,90.1,10.3709,60.5266,0.856362,-0.516373,-0.00174533,0.856362,0.156722,0.492019,4890.46
1,1,6,-47.912,90.1,-5.87922,42.3621,0.67027,-0.742116,-0.00174533,0.67027,-0.06902,0.738901,2611.41
1,2,0,-30.9364,90.1,30.9364,90.1,0.857737,-0.514085,-0.00174533,0.857737,0.514085,-0.00174533,148.827
1,2,1,-31.4186,90.1,30.7092,83.01,0.85338,-0.521286,-0.00174533,0.85338,0.506885,0.121696,871.403
1,2,2,-32.9091,90.1,30.0082,75.8101,0.839533,-0.543307,-0.00174533,0.839533,0.484864,0.245137,270.509
1,2,3,-35.461,90.1,28.8131,68.3721,0.81451,-0.580147,-0.00174533,0.81451,0.448023,0.368578,725.542
1,2,4,-39.1838,90.1,27.0831,60.5266,0.775122,-0.631809,-0.00174533,0.775122,0.396362,0.492019,209.375
1,2,5,-44.2901,90.1,24.7425,52.0147,0.715813,-0.69829,-0.00174533,0.715813,0.32988,0.61546,532.068
1,2,6,-51.2233,90.1,21.6486,42.3621,0.626286,-0.779592,-0.00174533,0.626286,0.248579,0.738901,148.743
1,2,7,-61.1297,90.1,17.5239,30.4194,0.482828,-0.875713,-0.00174533,0.482828,0.152457,0.862342,375.555
1,2,8,-80.6298,90.1,14.3048,9.67287,0.162813,-0.986655,-0.00174533,0.162813,0.041515,0.985783,107.368
1,3,0,-44.4736,90.1,44.4736,90.1,0.713572,-0.70058,-0.00174533,0.713572,0.70058,-0.00174533,55.9532
1,3,1,-44.8995,90.1,44.4674,83.01,0.708345,-0.705864,-0.00174533,0.708345,0.695296,0.121696,332.546
1,3,2,-46.2218,90.1,44.468,75.8101,0.691867,-0.722023,-0.00174533,0.691867,0.679137,0.245137,107.87
1,3,3,-48.5088,90.1,44.5467,68.3721,0.662504,-0.749057,-0.00174533,0.662504,0.652104,0.368578,310.531
1,3,4,-51.9029,90.1,44.8697,60.5266,0.616995,-0.786965,-0.00174533,0.616995,0.614195,0.492019,98.544
1,3,5,-56.6941,90.1,45.838,52.0147,0.549108,-0.835749,-0.00174533,0.549108,0.565411,0.61546,281.548
1,3,6,-63.5611,90.1,48.6407,42.3621,0.445242,-0.895408,-0.00174533,0.445242,0.505752,0.738901,90.3242
1,3,7,-75.004,90.1,59.2672,30.4194,0.258751,-0.965943,-0.00174533,0.258751,0.435218,0.862342,266.706
1,4,0,-62.9265,90.1,62.9265,90.1,0.455133,-0.890422,-0.00174533,0.455133,0.890422,-0.00174533,776.189
1,4,2,-65.134,90.1,64.2955,75.8101,0.420496,-0.907293,-0.00174533,0.420496,0.873551,0.245137,1593.43
1,4,4,-73.4137,90.1,70.859,60.5266,0.285459,-0.958389,-0.00174533,0.285459,0.822454,0.492019,1770.75
2,0,0,-22.8682,90.1,22.8682,90.1,0.9214,-0.388612,-0.00174533,0.9214,0.388612,-0.00174533,196.889
2,0,1,-23.4618,90.1,22.453,83.01,0.917324,-0.398137,-0.00174533,0.917324,0.379086,0.121696,1129.85
2,0,2,-25.2944,90.1,21.1597,75.8101,0.904123,-0.427268,-0.00174533,0.904123,0.349956,0.245137,331.886
2,0,3,-28.4248,90.1,18.907,68.3721,0.879441,-0.476004,-0.00174533,0.879441,0.30122,0.368578,823.12
2,0,4,-32.98,90.1,15.5154,60.5266,0.838859,-0.544345,-0.00174533,0.838859,0.232878,0.492019,217.323
2,0,5,-39.2195,90.1,10.5961,52.0147,0.774728,-0.632292,-0.00174533,0.774728,0.144932,0.61546,503.855
2,0,6,-47.7182,90.1,3.18012,42.3621,0.672776,-0.739844,-0.00174533,0.672776,0.0373799,0.738901,128.43
2,0,7,-60.1121,90.1,-10.2132,30.4194,0.498303,-0.867001,-0.00174533,0.498303,-0.0897772,0.862342,294.986
2,1,0,-30.9364,90.1,30.9364,90.1,0.857737,-0.514085,-0.00174533,0.857737,0.514085,-0.00174533,148.827
2,1,1,-31.4186,90.1,30.7092,83.01,0.85338,-0.521286,-0.00174533,0.85338,0.506885,0.121696,871.403
2,1,2,-32.9091,90.1,30.0082,75.8101,0.839533,-0.543307,-0.00174533,0.839533,0.484864,0.245137,270.509
2,1,3,-35.461,90.1,28.8131,68.3721,0.81451,-0.580147,-0.00174533,0.81451,0.448023,0.368578,725.542
2,1,4,-39.1838,90.1,27.0831,60.5266,0.775122,-0.631809,-0.00174533,0.775122,0.396362,0.492019,209.375
2,1,5,-44.2901,90.1,24.7425,52.0147,0.715813,-0.69829,-0.00174533,0.715813,0.32988,0.61546,532.068
2,1,6,-51.2233,90.1,21.6486,42.3621,0.626286,-0.779592,-0.00174533,0.626286,0.248579,0.738901,148.743
2,1,7,-61.1297,90.1,17.5239,30.4194,0.482828,-0.875713,-0.00174533,0.482828,0.152457,0.862342,375.555
2,1,8,-80.6298,90.1,14.3048,9.67287,0.162813,-0.986655,-0.00174533,0.162813,0.041515,0.985783,107.368
2,2,0,-42.3065,90.1,42.3065,90.1,0.739553,-0.673096,-0.00174533,0.739553,0.673096,-0.00174533,497.481
2,2,2,-44.0603,90.1,42.1643,75.8101,0.718608,-0.695414,-0.00174533,0.718608,0.650777,0.245137,951.047
2,2,4,-49.7302,90.1,42.0574,60.5266,0.646386,-0.763008,-0.00174533,0.646386,0.583183,0.492019,847.678
2,2,6,-61.1494,90.1,44.2655,42.3621,0.482527,-0.875879,-0.00174533,0.482527,0.470312,0.738901,747.178
2,3,0,-57.8827,90.1,57.8827,90.1,0.531654,-0.84696,-0.00174533,0.531654,0.84696,-0.00174533,44.8975
2,3,1,-58.3568,90.1,58.0921,83.01,0.524627,-0.851331,-0.00174533,0.524627,0.842589,0.121696,269.931
2,3,2,-59.8482,90.1,58.7952,75.8101,0.502291,-0.864697,-0.00174533,0.502291,0.829223,0.245137,90.6296
2,3,3,-62.5061,90.1,60.2235,68.3721,0.461654,-0.887058,-0.00174533,0.461654,0.806862,0.368578,276.255
2,3,4,-66.6957,90.1,62.9722,60.5266,0.395614,-0.918415,-0.00174533,0.395614,0.775505,0.492019,94.9719
2,3,5,-73.4899,90.1,68.8652,52.0147,0.284184,-0.958768,-0.00174533,0.284184,0.735152,0.61546,301.309
3,0,0,-35.6561,90.1,35.6561,90.1,0.812529,-0.582918,-0.00174533,0.812529,0.582918,-0.00174533,778.524
3,0,2,-37.4948,90.1,35.0773,75.8101,0.793407,-0.608689,-0.00174533,0.793407,0.557147,0.245137,1448.32
3,0,4,-43.3727,90.1,33.3886,60.5266,0.726901,-0.68674,-0.00174533,0.726901,0.479096,0.492019,1193.07
3,0,6,-54.7929,90.1,31.1711,42.3621,0.576532,-0.817072,-0.00174533,0.576532,0.348763,0.738901,928.432
3,0,8,-88.5666,90.1,81.4379,9.67287,0.0250153,-0.999686,-0.00174533,0.0250153,0.16615,0.985783,753.021
3,1,0,-44.4736,90.1,44.4736,90.1,0.713572,-0.70058,-0.00174533,0.713572,0.70058,-0.00174533,55.9532
3,1,1,-44.8995,90.1,44.4674,83.01,0.708345,-0.705864,-0.00174533,0.708345,0.695296,0.121696,332.546
3,1,2,-46.2218,90.1,44.468,75.8101,0.691867,-0.722023,-0.00174533,0.691867,0.679137,0.245137,107.87
3,1,3,-48.5088,90.1,44.5467,68.3721,0.662504,-0.749057,-0.00174533,0.662504,0.652104,0.368578,310.531
3,1,4,-51.9029,90.1,44.8697,60.5266,0.616995,-0.786965,-0.00174533,0.616995,0.614195,0.492019,98.544
3,1,5,-56.6941,90.1,45.838,52.0147,0.549108,-0.835749,-0.00174533,0.549108,0.565411,0.61546,281.548
3,1,6,-63.5611,90.1,48.6407,42.3621,0.445242,-0.895408,-0.00174533,0.445242,0.505752,0.738901,90.3242
3,1,7,-75.004,90.1,59.2672,30.4194,0.258751,-0.965943,-0.00174533,0.258751,0.435218,0.862342,266.706
3,2,0,-57.8827,90.1,57.8827,90.1,0.531654,-0.84696,-0.00174533,0.531654,0.84696,-0.00174533,44.8975
3,2,1,-58.3568,90.1,58.0921,83.01,0.524627,-0.851331,-0.00174533,0.524627,0.842589,0.121696,269.931
3,2,2,-59.8482,90.1,58.7952,75.8101,0.502291,-0.864697,-0.00174533,0.502291,0.829223,0.245137,90.6296
3,2,3,-62.5061,90.1,60.2235,68.3721,0.461654,-0.887058,-0.00174533,0.461654,0.806862,0.368578,276.255
3,2,4,-66.6957,90.1,62.9722,60.5266,0.395614,-0.918415,-0.00174533,0.395614,0.775505,0.492019,94.9719
3,2,5,-73.4899,90.1,68.8652,52.0147,0.284184,-0.958768,-0.00174533,0.284184,0.735152,0.61546,301.309
4,0,0,-51.0072,90.1,51.0072,90.1,0.629222,-0.777224,-0.00174533,0.629222,0.777224,-0.00174533,23.0136
4,0,1,-51.4429,90.1,51.1002,83.01,0.623293,-0.781986,-0.00174533,0.623293,0.772461,0.121696,137.595
4,0,2,-52.8022,90.1,51.4209,75.8101,0.604568,-0.796552,-0.00174533,0.604568,0.757896,0.245137,45.434
4,0,3,-55.1771,90.1,52.0998,68.3721,0.571041,-0.82092,-0.00174533,0.571041,0.733528,0.368578,134.683
4,0,4,-58.7699,90.1,53.4482,60.5266,0.518476,-0.855091,-0.00174533,0.518476,0.699357,0.492019,44.4972
4,0,5,-64.0355,90.1,56.256,52.0147,0.437814,-0.899064,-0.00174533,0.437814,0.655384,0.61546,133.747
4,0,6,-72.3339,90.1,63.2323,42.3621,0.303469,-0.95284,-0.00174533,0.303469,0.601608,0.738901,45.6155
4,1,0,-62.9265,90.1,62.9265,90.1,0.455133,-0.890422,-0.00174533,0.455133,0.890422,-0.00174533,776.189
4,1,2,-65.134,90.1,64.2955,75.8101,0.420496,-0.907293,-0.00174533,0.420496,0.873551,0.245137,1593.43
4,1,4,-73.4137,90.1,70.859,60.5266,0.285459,-0.958389,-0.00174533,0.285459,0.822454,0.492019,1770.75
5,0,0,-76.2957,90.1,76.2957,90.1,0.236911,-0.97153,-0.00174533,0.236911,0.97153,-0.00174533,42.8595
5,0,1,-77.2498,90.1,77.1527,83.01,0.220701,-0.97534,-0.00174533,0.220701,0.96772,0.121696,266.003
5,0,2,-80.749,90.1,80.4552,75.8101,0.160759,-0.986992,-0.00174533,0.160759,0.956067,0.245137,99.9157